timestamp,accel_x,accel_y,accel_z,gyro_x,gyro_y,gyro_z,rot_w,rot_x,rot_y,rot_z
245331940000000,0.0,0.0,0.0,0.0,0.0,0.0,1.0,0.0,0.0,0.0
245332500000000,-0.10551071,1.7932513,-0.5244358,0.86391616,0.074067414,-0.69806623,0.73166674,-0.16502331,0.6548564,-0.09270458
245332520000000,-0.011835098,1.9461207,-0.5548322,0.75854194,0.10842858,-0.57726765,1.0,0.0,0.0,0.0
245332540000000,0.054099083,2.124035,-0.6160773,0.61391956,0.15347989,-0.47021353,0.73148704,-0.160799,0.6532251,-0.11120852
245332560000000,0.048517227,2.245899,-0.5799466,0.46517387,0.19960022,-0.35216382,1.0,0.0,0.0,0.0
245332580000000,0.01898098,2.311492,-0.53275466,0.3051272,0.24556783,-0.24113905,0.72959024,-0.15775217,0.65396786,-0.123038575
245332600000000,-0.04100132,2.3086295,-0.43336728,0.13362677,0.31047225,-0.1328632,0.727947,-0.15675524,0.6554466,-0.12613821
245332620000000,-0.12852287,2.104019,-0.24832422,0.016035212,0.34804046,0.014813482,0.72583437,-0.15567431,0.65784156,-0.12717961
245332640000000,-0.15828514,1.8470476,0.115707695,-0.0421497,0.36270124,0.14905111,0.7238091,-0.15386392,0.6607068,-0.12606665
245332660000000,-0.2045908,1.5442371,0.65109396,-0.1330159,0.35246924,0.267559,0.7231911,-0.14947756,0.6631122,-0.12220186
245332680000000,-0.19762897,1.5167618,0.99224144,-0.49541172,0.2967278,0.311694,0.7244413,-0.14412501,0.6642154,-0.11502458
245332700000000,-0.1557827,1.3562742,1.1306123,-1.0697777,0.20173825,0.32345316,0.72668874,-0.14151594,0.6641532,-0.10391016
245332720000000,-0.18716335,0.75471973,1.2362089,-1.3707817,0.099265605,0.3662137,0.727278,-0.14599222,0.66435677,-0.09155927
245332740000000,-0.22253418,-0.037824154,1.3564309,-1.1369729,0.034513887,0.47784933,0.72540534,-0.15302624,0.66634154,-0.07974355
245332760000000,-0.2416544,-0.5627649,1.3871198,-0.5329799,0.02367103,0.62598413,0.72433704,-0.15621747,0.6678844,-0.06973055
245332780000000,-0.40902615,-0.7100866,1.2594345,0.16279559,0.06658431,0.8052731,0.72418344,-0.15331432,0.6693777,-0.06313983
245332800000000,-0.35143661,-0.52504253,0.7626731,0.6310238,0.044135015,0.88606006,0.7248413,-0.14470455,0.6708979,-0.059679974
245332820000000,-0.15034485,-0.4181249,0.22951037,0.90224797,0.045814894,0.94791013,0.72618306,-0.13303573,0.67198014,-0.05833071
245332840000000,0.052829742,-0.538301,-0.10793966,1.0897835,0.08781188,0.9653198,0.7275898,-0.11926092,0.67306423,-0.058091257
245332860000000,0.15104103,-0.33431244,-0.44709507,1.006095,0.123547494,0.88499105,1.0,0.0,0.0,0.0
245332880000000,0.1063776,-0.11550784,-0.4665295,0.72295904,0.10949759,0.79443026,0.7291886,-0.09246112,0.675472,-0.058927126
245332900000000,0.07255077,-0.21728909,-0.30679357,0.42241332,0.07498371,0.69974613,0.72950226,-0.082922675,0.6764866,-0.057585947
245332920000000,0.10298729,-0.41622508,-0.24739498,0.13133603,0.05497787,0.59712076,0.72968036,-0.07622046,0.67730504,-0.054908797
245332940000000,0.18056679,-0.55173993,-0.31906986,-0.18371773,0.036651913,0.49113566,0.7296343,-0.07241948,0.6780799,-0.050960205
245332960000000,0.21773243,-0.90443563,-0.2655048,0.0,0.0,0.0,0.72938097,-0.07169556,0.67879325,-0.045857433
245338320000000,0.061897278,-0.00484848,-0.08524048,0.0,0.0,0.0,1.0,0.0,0.0,0.0
245338340000000,0.0924263,-0.028615713,-0.06536406,0.0,0.0,0.0,0.7287807,-0.06647053,0.674435,-0.09796875
245338360000000,0.08749485,-0.031801224,-0.06816143,-0.027183503,-0.00580322,-0.007330383,0.72878945,-0.06669247,0.67441726,-0.097874716
245338380000000,0.07132721,-0.039643288,-0.07077348,0.0,0.0,0.0,1.0,0.0,0.0,0.0
245338400000000,0.055893898,-0.034718752,-0.05727154,-0.030695979,-0.012980887,-0.0067195175,0.728844,-0.06719301,0.674344,-0.09763098
245338420000000,0.112057686,-0.017891169,-0.034421742,0.0,0.0,0.0,0.728967,-0.06760971,0.6742049,-0.097384766
245338440000000,0.07736969,-0.0034532547,-0.018850684,-0.058490347,-0.020463986,-0.02107485,0.7290421,-0.06818893,0.67409927,-0.09714995
245338460000000,0.043326378,0.0068352222,-0.030196846,-0.071776666,-0.025809057,-0.034055736,0.72913116,-0.06898143,0.6739584,-0.09689901
245338480000000,0.034353256,0.028088093,-0.056245327,-0.07803804,-0.033292156,-0.04153884,0.7292598,-0.06985614,0.67376256,-0.096665956
245338500000000,0.04432106,0.061713934,-0.1004197,-0.07345655,-0.029626964,-0.045356743,0.7293674,-0.07072937,0.6735822,-0.09647648
245338520000000,0.01643467,0.113975525,-0.14689326,-0.07422013,-0.020158553,-0.04352415,0.7293954,-0.0715478,0.67348975,-0.09630576
245338540000000,-0.037457466,0.14329696,-0.17930138,-0.0852157,-0.00580322,-0.0290161,0.7293266,-0.07235643,0.6735326,-0.095923014
245338560000000,-0.032431602,0.13097835,-0.14071876,-0.08781188,0.010842858,-0.004886922,0.72916627,-0.072984524,0.67371607,-0.09537523
245338580000000,-0.015546799,0.10892248,-0.061863303,-0.076816306,0.025503624,0.023823744,0.7289525,-0.07333387,0.67400664,-0.09468575
245338600000000,-0.015118599,0.016398191,0.05320525,-0.06734789,0.03772093,0.047036625,0.72869146,-0.07343235,0.6743833,-0.093934506
245338620000000,0.0010786057,-0.07479453,0.15543413,-0.049632803,0.044898596,0.06688975,0.728422,-0.07328991,0.67479926,-0.09314535
245338640000000,-0.002691269,-0.15049863,0.2149046,-0.020005837,0.043218717,0.08246681,0.728202,-0.072810076,0.67518085,-0.09247411
245338660000000,0.02748394,-0.22244334,0.25139862,0.013286319,0.03359759,0.09101892,0.7280924,-0.07206067,0.67545104,-0.091949865
245345300000000,-0.29784775,-1.6728234,0.41517988,-0.24969117,0.109650314,0.9593639,0.7225474,-0.072393306,0.6866779,-0.03402916
245345320000000,-0.18264198,-1.8877097,0.38867214,0.0,0.0,0.0,0.72210383,-0.068371125,0.68785584,-0.02731125
245345340000000,0.0,0.0,0.0,-0.092240654,0.0795652,0.6940956,0.72173876,-0.06479458,0.6887661,-0.022273943
245345360000000,0.0,0.0,0.0,-0.02275473,0.05513059,0.5671884,0.72163695,-0.06237532,0.68918514,-0.019321868
245345380000000,0.15837765,-1.9592742,0.24646047,-0.012980887,0.038179077,0.44119743,0.72169536,-0.06221973,0.6891584,-0.018585121
245345400000000,0.21384525,-1.8393447,0.16559833,0.0,0.0,0.0,0.7216995,-0.06489979,0.68887794,-0.019624785
245345420000000,0.0,0.0,0.0,-0.16050485,0.020616703,0.20234911,0.7216779,-0.06907709,0.68845683,-0.0208923
245345440000000,0.23582268,-1.606388,0.1116648,0.0,0.0,0.0,0.72165793,-0.075156376,0.68777955,-0.022816278
245345460000000,0.2750635,-1.4667629,0.12524039,-0.3034473,-0.013439035,0.014049901,0.7217637,-0.08319394,0.68663514,-0.025848933
245345480000000,0.36178398,-1.3082395,0.08597422,-0.32650748,-0.015882496,-0.05879578,0.7217077,-0.092374586,0.6853633,-0.029701073
245345500000000,0.3886547,-1.2027019,0.09630594,-0.3107777,-0.0067195175,-0.12308934,0.72150135,-0.09833058,0.6846915,-0.031057138
245345520000000,0.0,0.0,0.0,-0.24969117,0.013744468,-0.1769982,0.72115284,-0.10292245,0.6843339,-0.032136343
245345540000000,0.28114128,-1.1045498,0.1537815,-0.15378532,0.038331795,-0.22800545,0.7207178,-0.10641697,0.6841841,-0.033665907
245345560000000,0.0,0.0,0.0,0.0,0.0,0.0,0.72023773,-0.10871291,0.6842203,-0.03580203
245345580000000,0.14225197,-0.8965571,0.20488772,0.0,0.0,0.0,0.7197186,-0.11026771,0.6843438,-0.03898479
245345600000000,0.027801514,-0.72521996,0.2579626,0.18707748,0.098043874,-0.3831652,0.7191023,-0.1114736,0.6845411,-0.043230988
245345620000000,-0.109620094,-0.5451882,0.3051474,0.2519819,0.10308351,-0.44409904,0.7184736,-0.11263796,0.6846697,-0.048330262
245345640000000,-0.19797325,-0.35502148,0.32019183,0.28939742,0.09056077,-0.5018258,1.0,0.0,0.0,0.0
245345660000000,-0.27203178,-0.20017934,0.3219668,0.3220787,0.08032878,-0.5676465,0.7174417,-0.115469016,0.6843176,-0.060447525
245345680000000,-0.32879925,-0.011989117,0.37819633,0.3623958,0.057421334,-0.62949663,0.71707785,-0.11717191,0.6837451,-0.067548655
245345700000000,-0.35428238,0.23161006,0.3983447,0.0,0.0,0.0,1.0,0.0,0.0,0.0
245345720000000,-0.42255592,0.49550867,0.40920764,0.0,0.0,0.0,0.7166082,-0.12067693,0.6818142,-0.08390016
245345740000000,-0.48690128,0.77982545,0.3544851,0.45921794,0.010537425,-0.78694713,0.7164223,-0.122722074,0.6805074,-0.09267212
245345760000000,-0.5220547,1.009417,0.3436782,0.47067168,-0.008552114,-0.8009971,0.71637493,-0.12455239,0.6789704,-0.101454124
245345780000000,-0.5375681,1.2104279,0.29317066,0.47128254,-0.028252518,-0.79427755,0.7169611,-0.1243362,0.67724633,-0.10883432
245345800000000,-0.50632477,1.4233338,0.28309202,0.44944412,-0.047800206,-0.7622071,0.71812934,-0.12194255,0.67553294,-0.11434873
245345820000000,-0.5018511,1.5831267,0.30890256,0.0,0.0,0.0,1.0,0.0,0.0,0.0
245345840000000,0.0,0.0,0.0,0.45646906,-0.11759156,-0.5865834,1.0,0.0,0.0,0.0
245345860000000,-0.26543617,1.677489,0.28482014,0.4343252,-0.15668693,-0.47525316,0.72507226,-0.1047804,0.669549,-0.12245619
245345880000000,-0.09089184,1.6595564,0.07337409,0.40393466,-0.14874569,-0.37140608,0.72631234,-0.10298584,0.6676987,-0.12666003
245345900000000,0.0,0.0,0.0,0.35537085,-0.101098195,-0.24801129,0.72709364,-0.10128369,0.6664517,-0.13007192
245345920000000,0.011876106,1.5725794,-0.2628739,0.27580565,-0.0729984,-0.15622878,0.72763735,-0.09966639,0.66563356,-0.13244812
245345940000000,0.0,0.0,0.0,0.0,0.0,0.0,0.72791266,-0.09851977,0.66534925,-0.1332198
245345960000000,-0.024280548,1.190644,-0.39755094,-0.019089539,-0.051618114,-0.007788532,0.7281693,-0.098542705,0.66515344,-0.13277677
245345980000000,0.044164658,1.0436933,-0.4549402,-0.09132435,-0.042760566,0.08368854,0.7284584,-0.098658144,0.6650992,-0.13136964
245346000000000,0.07042217,0.91644263,-0.45619833,-0.087201014,-0.032223143,0.1656972,0.7287983,-0.09819402,0.66517156,-0.12945177
245346020000000,0.067549706,0.7437439,-0.42084193,-0.017256944,-0.008399397,0.24709499,0.7291514,-0.09662145,0.6653923,-0.12749738
245346040000000,0.10747814,0.66874695,-0.41079122,0.056505036,0.016493361,0.32070425,0.7295051,-0.09396405,0.66575307,-0.1255625
245346060000000,0.12534523,0.62203383,-0.44023076,0.090713486,0.04917465,0.3894266,0.7297445,-0.09057709,0.66637087,-0.123363964
245346080000000,0.11283493,0.49066877,-0.4048739,0.101098195,0.08093964,0.44409904,0.72982687,-0.086745575,0.66725004,-0.1208529
245346100000000,0.0708065,0.33788204,-0.39812708,0.11301007,0.11148291,0.48823404,0.7297522,-0.082507014,0.66835845,-0.11811628
245346120000000,0.028150558,0.21640563,-0.41983855,0.11102476,0.12492194,0.52473325,0.7296031,-0.07800743,0.66958207,-0.11512653
245346140000000,0.032309532,0.111857176,-0.39863566,0.07422013,0.122783914,0.54229563,1.0,0.0,0.0,0.0
245346160000000,0.03237629,-0.056961298,-0.33384573,0.022143865,0.12721269,0.5484043,0.72921664,-0.06974321,0.67210317,-0.10796477
245346180000000,0.03187561,-0.24123955,-0.2734813,-0.0027488936,0.13225232,0.5369505,1.0,0.0,0.0,0.0
245346200000000,0.025559425,-0.3921907,-0.20281148,-0.0154243475,0.13439035,0.5128214,0.72849035,-0.06259968,0.6747657,-0.1003717
245346220000000,0.02422905,-0.52703524,-0.13200176,0.0,0.0,0.0,0.7280089,-0.05946004,0.67608315,-0.09684551
245346240000000,0.014821053,-0.6688776,-0.08624071,-0.0125227375,0.13881913,0.4363105,0.72747433,-0.056520008,0.67735094,-0.09371389
245346260000000,0.0,0.0,0.0,0.010079277,0.13225232,0.38438696,1.0,0.0,0.0,0.0
245346300000000,0.0,0.0,0.0,0.044745877,0.10980303,0.25244007,0.72594476,-0.04947936,0.680313,-0.08792244
245346320000000,0.24796772,-0.88832974,0.032304287,0.0,0.0,0.0,1.0,0.0,0.0,0.0
245346360000000,0.0,0.0,0.0,0.0,0.0,0.0,0.72393906,-0.04718849,0.68267554,-0.08740493
245346380000000,0.0,0.0,0.0,0.019547688,0.09254608,-0.04062254,1.0,0.0,0.0,0.0
245346420000000,0.0,0.0,0.0,0.0,0.0,0.0,0.72199124,-0.047689218,0.6844269,-0.08952248
245346460000000,0.07358074,-0.70567644,0.24235046,0.0,0.0,0.0,1.0,0.0,0.0,0.0
245346540000000,0.0,0.0,0.0,0.28787026,0.05207626,-0.09514226,1.0,0.0,0.0,0.0
245346580000000,0.0,0.0,0.0,0.3107777,0.0033597588,-0.1348485,1.0,0.0,0.0,0.0
245346600000000,0.0,0.0,0.0,0.29611692,-0.032223143,-0.16157386,0.71906126,-0.038842086,0.6850529,-0.11020379
245346620000000,0.0,0.0,0.0,0.27550024,-0.06093381,-0.19746219,1.0,0.0,0.0,0.0
