timestamp,accel_x,accel_y,accel_z,gyro_x,gyro_y,gyro_z,rot_w,rot_x,rot_y,rot_z
245568320000000,-1.2579899,0.7384615,0.21119547,0.0,0.0,0.0,0.419762,-0.7615625,0.41023538,-0.27482605
245568340000000,-1.3018035,0.45404816,0.44379616,0.2751948,0.31474832,0.04795292,0.4201973,-0.75940174,0.41156515,-0.27813205
245568360000000,-1.0495045,0.39487457,0.34669638,0.32635477,0.21991149,0.06582073,0.42156154,-0.7571017,0.41232225,-0.28119978
245568380000000,-0.7395256,0.57320404,-0.063584805,0.31047225,0.20708331,0.079107046,0.4234172,-0.7548076,0.41284496,-0.28379965
245568400000000,-0.53255516,0.53592396,-0.2788701,0.25717425,0.20525073,0.04932737,0.42491356,-0.7527621,0.41340142,-0.28617662
245568420000000,-0.43211502,0.6297121,-0.35449123,0.18891008,0.27046058,0.06505715,0.42587912,-0.7508828,0.41409302,-0.28866774
245568440000000,-0.4437322,0.68550587,-0.1941719,0.047800206,0.31597003,0.06001751,0.42593908,-0.74915326,0.4154182,-0.2911582
245568460000000,-0.69664407,0.2089014,-0.03337717,-0.06811147,0.3193298,0.04505131,0.4246448,-0.74802387,0.4172648,-0.29330403
245568480000000,-0.85547084,-0.1887722,-0.2093463,-0.16081028,0.26343563,0.017715093,0.422752,-0.74739367,0.4191737,-0.29491854
245568500000000,-0.81823605,0.06709671,-0.27481556,-0.3016147,0.24251351,0.00030543262,0.42019576,-0.7475042,0.42105463,-0.2956113
245568520000000,-0.71400714,0.08640289,-0.24457502,-0.41050145,0.25488353,-0.049938235,0.41647115,-0.748331,0.42310995,-0.2958554
245568540000000,-0.7581519,-0.02674675,-0.032749176,-0.3727805,0.23747386,-0.08689558,0.4121865,-0.7495293,0.42496076,-0.29616982
245568560000000,-0.7129191,-0.09199524,0.21304607,-0.23105977,0.16187929,-0.08246681,0.40862256,-0.75059396,0.42615134,-0.2967009
245568580000000,-0.5791471,-0.23250961,0.14364052,-0.051923547,0.08735373,-0.071013086,0.40667292,-0.75117654,0.42659464,-0.29726765
245568600000000,-0.5254806,-0.31903362,0.014519215,0.15683965,0.005497787,-0.04932737,0.40646774,-0.7511332,0.42628708,-0.29809776
245568620000000,-0.36451513,-0.3010435,-0.32741642,0.3013093,-0.074067414,-0.06566802,0.40818393,-0.7504867,0.42510048,-0.2990744
245568640000000,-0.25427902,-0.14464855,-0.5265827,0.0,0.0,0.0,0.41088226,-0.74966884,0.42322963,-0.30008203
245568660000000,-0.14627051,-0.16278934,-0.5234871,0.46609017,-0.182496,-0.07788532,0.41432035,-0.7487217,0.4209272,-0.30095667
245568680000000,-0.15137076,-0.14203358,-0.59842205,0.59849524,-0.25366178,-0.095294975,0.4187973,-0.74751616,0.4179079,-0.30196282
245568700000000,-0.12898326,0.012810707,-0.911427,0.6052147,-0.31520647,-0.120493166,0.4242653,-0.7462049,0.4140477,-0.30288884
245568720000000,-0.06321728,0.29337025,-1.0358305,0.51068336,-0.3578143,-0.12507465,0.4293953,-0.7453607,0.41003737,-0.30319405
245568740000000,0.036865473,0.5411663,-1.0022082,0.33093625,-0.3471242,-0.1414153,0.43125632,-0.74682176,0.40685955,-0.3012319
245568760000000,0.08482653,0.70507336,-0.9187107,0.13164146,-0.2959642,-0.18142697,0.4327043,-0.74819756,0.40383387,-0.2998094
245568780000000,0.07428378,0.7424545,-0.6340308,0.0,0.0,0.0,0.43369684,-0.74950695,0.40104002,-0.29885328
245568800000000,0.10482544,0.73377085,-0.46265316,-0.037415497,-0.20815234,-0.19501872,0.43393958,-0.7510064,0.39864364,-0.2979413
245568820000000,0.19092381,0.76995087,-0.41667128,-0.10476339,-0.14553864,-0.17241672,0.4336279,-0.7525968,0.39658973,-0.297122
245568840000000,0.22771466,0.7155771,-0.33609247,-0.12950343,-0.0852157,-0.14156802,0.43268618,-0.75410557,0.3952547,-0.29644784
245568860000000,0.0,0.0,0.0,-0.083383106,-0.03894266,-0.093462385,0.43164036,-0.7553182,0.3943902,-0.2960361
245568880000000,0.25507247,0.4213705,-0.23933506,-0.053145275,0.013897184,-0.051618114,0.4309871,-0.7559655,0.39391878,-0.2959634
245568900000000,0.19303143,0.36788845,-0.12921286,-0.03772093,0.04520403,0.012370021,0.4304248,-0.7561734,0.3939858,-0.29616168
245568920000000,0.17578828,0.04166031,-0.32356882,-0.05467244,0.06704246,0.043982297,0.42997187,-0.75605226,0.39459875,-0.29631227
245568940000000,0.05604899,-0.14740467,-0.44944715,-0.061391957,0.09621128,0.08155051,0.4293765,-0.75585514,0.39553586,-0.29642913
245568960000000,-0.0720253,-0.22391987,-0.5808439,-0.08659015,0.12034045,0.10781772,0.42869577,-0.75537354,0.39702216,-0.29665533
245568980000000,-0.18108678,-0.23292637,-0.46218157,-0.1704314,0.16737708,0.1348485,0.4276268,-0.7550042,0.39882657,-0.29671735
245569000000000,-0.2879957,-0.30547237,-0.1830926,-0.22693644,0.21517728,0.1282817,0.42570168,-0.75463593,0.40146586,-0.2968636
245569020000000,-0.5104418,-0.270998,0.20173597,-0.22724187,0.26389378,0.12782355,0.42336115,-0.75442666,0.40409896,-0.2971697
245569040000000,-0.5828273,-0.24692154,0.25653076,-0.24648413,0.2779437,0.110872045,0.420954,-0.75391,0.40706858,-0.2978469
245569060000000,-0.598271,-0.098487854,0.4561715,-0.269697,0.3407101,0.11178834,0.41810936,-0.7536718,0.4099122,-0.2985553
245569080000000,-0.6196385,-0.1620264,0.6526861,-0.20952678,0.37018433,0.11453723,0.41509598,-0.75294524,0.41332757,-0.29988202
245569100000000,-0.60028815,-0.32228374,0.6381097,-0.13897185,0.40485093,0.10247265,0.4129904,-0.75179684,0.41634524,-0.30149135
245569120000000,-0.6824774,-0.3653202,0.7670126,-0.047036625,0.4202753,0.09621128,0.4122975,-0.7494915,0.41953442,-0.30375016
245569140000000,-0.7180919,-0.26046753,0.7508137,0.05207626,0.36957347,0.0786489,0.41154262,-0.74748826,0.42198956,-0.30629888
245569160000000,-0.6580507,0.06739235,0.70774364,0.1001819,0.3387248,0.059253927,0.41074193,-0.7455675,0.4240576,-0.30918497
245569180000000,-0.6095158,0.2763567,0.5332556,0.07895433,0.30757064,0.035277467,0.4102718,-0.74393207,0.42543766,-0.31184116
245569200000000,-0.60296637,0.23908424,0.27147532,-0.01740966,0.30466905,0.005192355,0.4090022,-0.74204606,0.4277686,-0.31479982
245569220000000,-0.6394365,0.10710716,0.14809942,0.0,0.0,0.0,0.40714765,-0.7413911,0.42916518,-0.31683937
245569260000000,0.0,0.0,0.0,-0.27091873,0.3941608,-0.10552697,1.0,0.0,0.0,0.0
245569280000000,-0.67354286,-0.32797527,0.1312437,-0.3034473,0.41126502,-0.13454308,0.39661133,-0.7415475,0.43416017,-0.32297322
245569300000000,-0.72478443,-0.41525745,0.19865274,-0.27977628,0.43142357,-0.14309518,0.3921655,-0.7419651,0.43576053,-0.3252797
245569320000000,-0.80390364,-0.45442867,0.27642107,-0.18585575,0.43004912,-0.14202617,0.38808972,-0.7419699,0.43739095,-0.32795796
245569340000000,-0.8211428,-0.48276615,0.3232398,-0.04932737,0.4109596,-0.13271047,0.38505572,-0.74156994,0.43852672,-0.33090872
245569360000000,-0.8231698,-0.48224354,0.26995468,0.10476339,0.39858958,-0.13988814,0.3830279,-0.740546,0.43930522,-0.33450273
245569380000000,-0.8420772,-0.2972889,0.26275873,0.25778514,0.37125334,-0.1217149,0.3825361,-0.7389589,0.4394126,-0.3384119
245569400000000,-0.77739334,-0.042612076,0.32421112,0.4016439,0.3220787,-0.10262536,0.38294756,-0.73694533,0.43898356,-0.34286463
245569420000000,-0.6309217,0.18737316,0.26478815,0.5137377,0.28191432,-0.076358154,0.3846331,-0.73457605,0.43789166,-0.3474281
245569440000000,-0.5932442,0.17504597,0.08781195,0.6217081,0.24663684,-0.046883907,0.38635933,-0.7306004,0.4384633,-0.35312808
245569460000000,-0.4739163,0.05237198,-0.20699501,0.7545713,0.21013765,-0.028710667,0.39010718,-0.7273664,0.43670037,-0.35783696
245569480000000,-0.34904027,-0.069745064,-0.37411928,0.93767816,0.1956296,-0.006872234,0.39470488,-0.72309107,0.4351383,-0.36332086
245569500000000,-0.27378678,-0.08660126,-0.27706861,1.2284501,0.18051068,0.01740966,0.40138164,-0.71827054,0.43206885,-0.3691838
245569520000000,-0.22919917,0.08499622,-0.5303209,1.4966198,0.14874569,0.016340645,0.41023093,-0.7117738,0.42829072,-0.37637192
245569540000000,-0.08757591,0.9546652,-0.9162538,1.3405437,0.105068825,0.024129177,0.4198905,-0.7053382,0.42341143,-0.38329202
245569560000000,0.3180343,1.3371949,-1.1956828,0.97203934,0.07284568,0.016798794,0.4272016,-0.699928,0.41993836,-0.3889104
245569580000000,0.5586854,0.6969719,-0.88281035,0.7834347,0.1366811,0.052534413,0.42563415,-0.70112634,0.41703555,-0.39158505
245569600000000,0.31508183,-0.34254074,-0.43051147,1.0897835,0.15928312,0.027794369,0.43068,-0.69624174,0.41547874,-0.39640832
245569620000000,0.23801029,-0.30016613,-1.1206615,1.2678508,0.09987647,0.012980887,0.43865156,-0.69041765,0.41116396,-0.40230918
245569640000000,0.37027264,0.49397182,-1.0272932,1.0045679,0.14767668,0.06536258,0.4322302,-0.6962299,0.4099211,-0.40050697
245569660000000,0.39558327,0.52878666,-0.5661814,0.8190176,0.19685133,0.100334615,0.4379963,-0.69138604,0.4076148,-0.40496263
245569680000000,0.2664169,0.33927822,-0.21684551,0.9558514,0.18402316,0.13255776,0.44176003,-0.6849227,0.40835872,-0.41106227
245569700000000,0.3900609,0.47539425,-0.22332573,1.1270463,0.17623462,0.16447547,0.44865584,-0.6790405,0.40586242,-0.41579768
245569720000000,0.6577016,0.66457176,-0.53074956,1.135904,0.2264783,0.20250183,0.45456675,-0.6706272,0.40578637,-0.4230434
245569740000000,0.6491003,0.6948633,-0.62804246,0.9795224,0.34773505,0.22540927,0.46152586,-0.6637314,0.40378904,-0.42826283
245569760000000,0.36998558,0.4178381,-0.66724026,0.7948884,0.44806966,0.23808473,0.46673703,-0.6568539,0.403402,-0.43355083
245569780000000,0.008931637,0.21094894,-0.37925112,0.7273878,0.45662177,0.2434298,0.47070548,-0.6503998,0.40394813,-0.4384547
245569800000000,0.13289142,0.38310242,-0.20032978,0.8164214,0.44150287,0.27382034,0.47472277,-0.6437986,0.40454268,-0.44329107
245569820000000,0.46106052,0.6427231,-0.010293841,0.9914343,0.5160284,0.29871312,0.47968072,-0.63644695,0.4046698,-0.44842404
245569840000000,0.4007615,0.49547005,0.45302355,1.2414309,0.61346143,0.32696563,0.48557383,-0.6271924,0.40467224,-0.4550695
245569860000000,0.06071174,-0.55311394,-0.0044603944,0.92927873,0.5896377,0.094989546,0.49217752,-0.61696,0.40370592,-0.46275604
245569880000000,-0.37902057,-0.8617153,0.26789445,0.257327,0.4466952,-0.049632803,0.49352655,-0.6117698,0.40337214,-0.46846583
245569900000000,-0.0880239,-1.8599367,0.66162914,0.5652031,0.32330042,0.09468412,0.4933569,-0.60872626,0.40416446,-0.47191355
245569920000000,0.71086335,-1.2122784,1.010543,1.169807,0.32803464,0.16432275,0.49781978,-0.6026401,0.4025754,-0.4763753
245569940000000,0.61342704,-0.15991306,1.4683094,1.3892603,0.38453966,0.113926366,0.5057041,-0.5923512,0.39772195,-0.4849751
245569960000000,-0.118632674,0.35112,2.3514504,1.8484782,0.19715676,0.11255192,0.5258507,-0.5667553,0.38484856,-0.5041437
245569980000000,-0.49770224,1.010992,2.8801084,2.766456,-0.10293079,0.18692477,0.54351515,-0.54721344,0.37214014,-0.5163919
245570000000000,-0.7097446,1.766118,2.4217076,3.7572794,-0.31703907,0.36880988,0.56275684,-0.5297938,0.3556875,-0.52546144
245570020000000,-0.739991,0.56472874,1.5637484,0.0,0.0,0.0,0.59823394,-0.48968217,0.33328807,-0.53967273
245570040000000,0.0,0.0,0.0,4.3052254,-0.47708577,0.5655085,1.0,0.0,0.0,0.0
245570080000000,0.0,0.0,0.0,0.0,0.0,0.0,0.66776615,-0.41539016,0.27074596,-0.5551901
245570100000000,0.0,0.0,0.0,0.0,0.0,0.0,0.6826799,-0.4003975,0.26186347,-0.5523202
